[{"0":{"options":["+9","-12"],"infoPrice":"9","angle":0},"1":{"options":["+3","-3"],"infoPrice":"2","angle":150},"2":{"options":["+3","-12"],"infoPrice":"3","angle":150},"3":{"options":["+12","-3"],"infoPrice":"2","angle":30},"4":{"options":["+9","-6"],"infoPrice":"2","angle":0},"success":true,"trial_type":"fullscreen","trial_index":0,"time_elapsed":4949,"internal_node_id":"0.0-0.0","leftColor":"MediumPurple","rightColor":"Gold","gambleChoiceLeft":"Yes","gambleChoiceRight":"No","infoShowLeft":"Yes","infoShowRight":"No","topInfoOutcomeLeft":"Yes","topInfoOutcomeRight":"No","bottomInfoOutcomeLeft":"Yes","bottomInfoOutcomeRight":"No","outcomeAngle":135,"participantID":101,"session":1,"gambleDecision":"Yes","infoRevealDecision":"No","infoPlayTop":"Yes","infoPlayBottom":"No"},{"0":{"options":["+9","-12"],"infoPrice":"9","angle":0},"1":{"options":["+3","-3"],"infoPrice":"2","angle":150},"2":{"options":["+3","-12"],"infoPrice":"3","angle":150},"3":{"options":["+12","-3"],"infoPrice":"2","angle":30},"4":{"options":["+9","-6"],"infoPrice":"2","angle":0},"rt":3994.440000002214,"stimulus":"Welcome to the experiment.<br>Press any key to begin.","key_press":32,"trial_type":"html-keyboard-response","trial_index":1,"time_elapsed":8945,"internal_node_id":"0.0-1.0","leftColor":"MediumPurple","rightColor":"Gold","gambleChoiceLeft":"Yes","gambleChoiceRight":"No","infoShowLeft":"Yes","infoShowRight":"No","topInfoOutcomeLeft":"Yes","topInfoOutcomeRight":"No","bottomInfoOutcomeLeft":"Yes","bottomInfoOutcomeRight":"No","outcomeAngle":135,"participantID":101,"session":1,"gambleDecision":"Yes","infoRevealDecision":"No","infoPlayTop":"Yes","infoPlayBottom":"No"},{"0":{"options":["+9","-12"],"infoPrice":"9","angle":0},"1":{"options":["+3","-3"],"infoPrice":"2","angle":150},"2":{"options":["+3","-12"],"infoPrice":"3","angle":150},"3":{"options":["+12","-3"],"infoPrice":"2","angle":30},"4":{"options":["+9","-6"],"infoPrice":"2","angle":0},"rt":2892.5400000007357,"responses":"{\"ID\":\"101\",\"session\":\"1\"}","trial_type":"survey-text","trial_index":2,"time_elapsed":11840,"internal_node_id":"0.0-2.0-0.0","leftColor":"MediumPurple","rightColor":"Gold","gambleChoiceLeft":"Yes","gambleChoiceRight":"No","infoShowLeft":"Yes","infoShowRight":"No","topInfoOutcomeLeft":"Yes","topInfoOutcomeRight":"No","bottomInfoOutcomeLeft":"Yes","bottomInfoOutcomeRight":"No","outcomeAngle":135,"participantID":101,"session":1,"gambleDecision":"Yes","infoRevealDecision":"No","infoPlayTop":"Yes","infoPlayBottom":"No"},{"0":{"options":["+9","-12"],"infoPrice":"9","angle":0},"1":{"options":["+3","-3"],"infoPrice":"2","angle":150},"2":{"options":["+3","-12"],"infoPrice":"3","angle":150},"3":{"options":["+12","-3"],"infoPrice":"2","angle":30},"4":{"options":["+9","-6"],"infoPrice":"2","angle":0},"rt":797.9199999972479,"stimulus":"<p>In this experiment, you need to make a couple of decisions.</p><p>A circle will appear in the center of the screen.</p><p>Press <strong>F</strong> for option on the <strong>left</strong>.</p><p>Press <strong>J</strong> for option on the <strong>right</strong>.</p><p><strong>Press any key to begin.</strong></p>","key_press":13,"trial_type":"html-keyboard-response","trial_index":3,"time_elapsed":12640,"internal_node_id":"0.0-3.0","leftColor":"MediumPurple","rightColor":"Gold","gambleChoiceLeft":"Yes","gambleChoiceRight":"No","infoShowLeft":"Yes","infoShowRight":"No","topInfoOutcomeLeft":"Yes","topInfoOutcomeRight":"No","bottomInfoOutcomeLeft":"Yes","bottomInfoOutcomeRight":"No","outcomeAngle":135,"participantID":101,"session":1,"gambleDecision":"Yes","infoRevealDecision":"No","infoPlayTop":"Yes","infoPlayBottom":"No"},{"0":{"options":["+9","-12"],"infoPrice":"9","angle":0},"1":{"options":["+3","-3"],"infoPrice":"2","angle":150},"2":{"options":["+3","-12"],"infoPrice":"3","angle":150},"3":{"options":["+12","-3"],"infoPrice":"2","angle":30},"4":{"options":["+9","-6"],"infoPrice":"2","angle":0},"rt":13740.335000002233,"response":70,"trial_type":"canvas-keyboard-response","trial_index":4,"time_elapsed":26588,"internal_node_id":"0.0-4.0-0.0","leftColor":"MediumPurple","rightColor":"Gold","gambleChoiceLeft":"Yes","gambleChoiceRight":"No","infoShowLeft":"Yes","infoShowRight":"No","topInfoOutcomeLeft":"Yes","topInfoOutcomeRight":"No","bottomInfoOutcomeLeft":"Yes","bottomInfoOutcomeRight":"No","outcomeAngle":135,"participantID":101,"session":1,"gambleDecision":"Yes","infoRevealDecision":"No","infoPlayTop":"Yes","infoPlayBottom":"No"},{"0":{"options":["+9","-12"],"infoPrice":"9","angle":0},"1":{"options":["+3","-3"],"infoPrice":"2","angle":150},"2":{"options":["+3","-12"],"infoPrice":"3","angle":150},"3":{"options":["+12","-3"],"infoPrice":"2","angle":30},"4":{"options":["+9","-6"],"infoPrice":"2","angle":0},"startTime":26669.055000005756,"rt":null,"response":null,"trial_type":"canvas-keyboard-response","trial_index":5,"time_elapsed":27592,"internal_node_id":"0.0-4.0-1.0","leftColor":"MediumPurple","rightColor":"Gold","gambleChoiceLeft":"Yes","gambleChoiceRight":"No","infoShowLeft":"Yes","infoShowRight":"No","topInfoOutcomeLeft":"Yes","topInfoOutcomeRight":"No","bottomInfoOutcomeLeft":"Yes","bottomInfoOutcomeRight":"No","outcomeAngle":135,"participantID":101,"session":1,"gambleDecision":"Yes","infoRevealDecision":"No","infoPlayTop":"Yes","infoPlayBottom":"No"},{"0":{"options":["+9","-12"],"infoPrice":"9","angle":0},"1":{"options":["+3","-3"],"infoPrice":"2","angle":150},"2":{"options":["+3","-12"],"infoPrice":"3","angle":150},"3":{"options":["+12","-3"],"infoPrice":"2","angle":30},"4":{"options":["+9","-6"],"infoPrice":"2","angle":0},"rt":1379.335000005085,"response":74,"trial_type":"canvas-keyboard-response","trial_index":6,"time_elapsed":28975,"internal_node_id":"0.0-4.0-2.0","leftColor":"MediumPurple","rightColor":"Gold","gambleChoiceLeft":"Yes","gambleChoiceRight":"No","infoShowLeft":"Yes","infoShowRight":"No","topInfoOutcomeLeft":"Yes","topInfoOutcomeRight":"No","bottomInfoOutcomeLeft":"Yes","bottomInfoOutcomeRight":"No","outcomeAngle":135,"participantID":101,"session":1,"gambleDecision":"Yes","infoRevealDecision":"No","infoPlayTop":"Yes","infoPlayBottom":"No"},{"0":{"options":["+9","-12"],"infoPrice":"9","angle":0},"1":{"options":["+3","-3"],"infoPrice":"2","angle":150},"2":{"options":["+3","-12"],"infoPrice":"3","angle":150},"3":{"options":["+12","-3"],"infoPrice":"2","angle":30},"4":{"options":["+9","-6"],"infoPrice":"2","angle":0},"startTime":29055.88500000158,"rt":null,"response":null,"trial_type":"canvas-keyboard-response","trial_index":7,"time_elapsed":29978,"internal_node_id":"0.0-4.0-3.0","leftColor":"MediumPurple","rightColor":"Gold","gambleChoiceLeft":"Yes","gambleChoiceRight":"No","infoShowLeft":"Yes","infoShowRight":"No","topInfoOutcomeLeft":"Yes","topInfoOutcomeRight":"No","bottomInfoOutcomeLeft":"Yes","bottomInfoOutcomeRight":"No","outcomeAngle":135,"participantID":101,"session":1,"gambleDecision":"Yes","infoRevealDecision":"No","infoPlayTop":"Yes","infoPlayBottom":"No"},{"0":{"options":["+9","-12"],"infoPrice":"9","angle":0},"1":{"options":["+3","-3"],"infoPrice":"2","angle":150},"2":{"options":["+3","-12"],"infoPrice":"3","angle":150},"3":{"options":["+12","-3"],"infoPrice":"2","angle":30},"4":{"options":["+9","-6"],"infoPrice":"2","angle":0},"rt":698.0100000000675,"response":32,"trial_type":"canvas-keyboard-response","trial_index":8,"time_elapsed":30678,"internal_node_id":"0.0-4.0-5.0","leftColor":"MediumPurple","rightColor":"Gold","gambleChoiceLeft":"Yes","gambleChoiceRight":"No","infoShowLeft":"Yes","infoShowRight":"No","topInfoOutcomeLeft":"Yes","topInfoOutcomeRight":"No","bottomInfoOutcomeLeft":"Yes","bottomInfoOutcomeRight":"No","outcomeAngle":135,"participantID":101,"session":1,"gambleDecision":"Yes","infoRevealDecision":"No","infoPlayTop":"Yes","infoPlayBottom":"No"},{"0":{"options":["+9","-12"],"infoPrice":"9","angle":0},"1":{"options":["+3","-3"],"infoPrice":"2","angle":150},"2":{"options":["+3","-12"],"infoPrice":"3","angle":150},"3":{"options":["+12","-3"],"infoPrice":"2","angle":30},"4":{"options":["+9","-6"],"infoPrice":"2","angle":0},"rt":1185.8549999960815,"response":74,"trial_type":"canvas-keyboard-response","trial_index":9,"time_elapsed":31865,"internal_node_id":"0.0-4.0-0.1","leftColor":"MediumPurple","rightColor":"Gold","gambleChoiceLeft":"Yes","gambleChoiceRight":"No","infoShowLeft":"Yes","infoShowRight":"No","topInfoOutcomeLeft":"Yes","topInfoOutcomeRight":"No","bottomInfoOutcomeLeft":"Yes","bottomInfoOutcomeRight":"No","outcomeAngle":135,"participantID":101,"session":1,"gambleDecision":"Yes","infoRevealDecision":"No","infoPlayTop":"Yes","infoPlayBottom":"No"},{"0":{"options":["+9","-12"],"infoPrice":"9","angle":0},"1":{"options":["+3","-3"],"infoPrice":"2","angle":150},"2":{"options":["+3","-12"],"infoPrice":"3","angle":150},"3":{"options":["+12","-3"],"infoPrice":"2","angle":30},"4":{"options":["+9","-6"],"infoPrice":"2","angle":0},"startTime":31946.680000000924,"rt":null,"response":null,"trial_type":"canvas-keyboard-response","trial_index":10,"time_elapsed":32870,"internal_node_id":"0.0-4.0-1.1","leftColor":"MediumPurple","rightColor":"Gold","gambleChoiceLeft":"Yes","gambleChoiceRight":"No","infoShowLeft":"Yes","infoShowRight":"No","topInfoOutcomeLeft":"Yes","topInfoOutcomeRight":"No","bottomInfoOutcomeLeft":"Yes","bottomInfoOutcomeRight":"No","outcomeAngle":135,"participantID":101,"session":1,"gambleDecision":"Yes","infoRevealDecision":"No","infoPlayTop":"Yes","infoPlayBottom":"No"},{"0":{"options":["+9","-12"],"infoPrice":"9","angle":0},"1":{"options":["+3","-3"],"infoPrice":"2","angle":150},"2":{"options":["+3","-12"],"infoPrice":"3","angle":150},"3":{"options":["+12","-3"],"infoPrice":"2","angle":30},"4":{"options":["+9","-6"],"infoPrice":"2","angle":0},"rt":627.4300000004587,"response":74,"trial_type":"canvas-keyboard-response","trial_index":11,"time_elapsed":33500,"internal_node_id":"0.0-4.0-2.1","leftColor":"MediumPurple","rightColor":"Gold","gambleChoiceLeft":"Yes","gambleChoiceRight":"No","infoShowLeft":"Yes","infoShowRight":"No","topInfoOutcomeLeft":"Yes","topInfoOutcomeRight":"No","bottomInfoOutcomeLeft":"Yes","bottomInfoOutcomeRight":"No","outcomeAngle":135,"participantID":101,"session":1,"gambleDecision":"Yes","infoRevealDecision":"No","infoPlayTop":"Yes","infoPlayBottom":"No"},{"0":{"options":["+9","-12"],"infoPrice":"9","angle":0},"1":{"options":["+3","-3"],"infoPrice":"2","angle":150},"2":{"options":["+3","-12"],"infoPrice":"3","angle":150},"3":{"options":["+12","-3"],"infoPrice":"2","angle":30},"4":{"options":["+9","-6"],"infoPrice":"2","angle":0},"startTime":33581.36999999988,"rt":null,"response":null,"trial_type":"canvas-keyboard-response","trial_index":12,"time_elapsed":34504,"internal_node_id":"0.0-4.0-3.1","leftColor":"MediumPurple","rightColor":"Gold","gambleChoiceLeft":"Yes","gambleChoiceRight":"No","infoShowLeft":"Yes","infoShowRight":"No","topInfoOutcomeLeft":"Yes","topInfoOutcomeRight":"No","bottomInfoOutcomeLeft":"Yes","bottomInfoOutcomeRight":"No","outcomeAngle":135,"participantID":101,"session":1,"gambleDecision":"Yes","infoRevealDecision":"No","infoPlayTop":"Yes","infoPlayBottom":"No"},{"0":{"options":["+9","-12"],"infoPrice":"9","angle":0},"1":{"options":["+3","-3"],"infoPrice":"2","angle":150},"2":{"options":["+3","-12"],"infoPrice":"3","angle":150},"3":{"options":["+12","-3"],"infoPrice":"2","angle":30},"4":{"options":["+9","-6"],"infoPrice":"2","angle":0},"rt":653.9899999988847,"response":32,"trial_type":"canvas-keyboard-response","trial_index":13,"time_elapsed":35159,"internal_node_id":"0.0-4.0-5.1","leftColor":"MediumPurple","rightColor":"Gold","gambleChoiceLeft":"Yes","gambleChoiceRight":"No","infoShowLeft":"Yes","infoShowRight":"No","topInfoOutcomeLeft":"Yes","topInfoOutcomeRight":"No","bottomInfoOutcomeLeft":"Yes","bottomInfoOutcomeRight":"No","outcomeAngle":135,"participantID":101,"session":1,"gambleDecision":"Yes","infoRevealDecision":"No","infoPlayTop":"Yes","infoPlayBottom":"No"},{"0":{"options":["+9","-12"],"infoPrice":"9","angle":0},"1":{"options":["+3","-3"],"infoPrice":"2","angle":150},"2":{"options":["+3","-12"],"infoPrice":"3","angle":150},"3":{"options":["+12","-3"],"infoPrice":"2","angle":30},"4":{"options":["+9","-6"],"infoPrice":"2","angle":0},"rt":844.600000003993,"response":74,"trial_type":"canvas-keyboard-response","trial_index":14,"time_elapsed":36006,"internal_node_id":"0.0-4.0-0.2","leftColor":"MediumPurple","rightColor":"Gold","gambleChoiceLeft":"Yes","gambleChoiceRight":"No","infoShowLeft":"Yes","infoShowRight":"No","topInfoOutcomeLeft":"Yes","topInfoOutcomeRight":"No","bottomInfoOutcomeLeft":"Yes","bottomInfoOutcomeRight":"No","outcomeAngle":135,"participantID":101,"session":1,"gambleDecision":"Yes","infoRevealDecision":"No","infoPlayTop":"Yes","infoPlayBottom":"No"},{"0":{"options":["+9","-12"],"infoPrice":"9","angle":0},"1":{"options":["+3","-3"],"infoPrice":"2","angle":150},"2":{"options":["+3","-12"],"infoPrice":"3","angle":150},"3":{"options":["+12","-3"],"infoPrice":"2","angle":30},"4":{"options":["+9","-6"],"infoPrice":"2","angle":0},"startTime":36087.14000000327,"rt":null,"response":null,"trial_type":"canvas-keyboard-response","trial_index":15,"time_elapsed":37010,"internal_node_id":"0.0-4.0-1.2","leftColor":"MediumPurple","rightColor":"Gold","gambleChoiceLeft":"Yes","gambleChoiceRight":"No","infoShowLeft":"Yes","infoShowRight":"No","topInfoOutcomeLeft":"Yes","topInfoOutcomeRight":"No","bottomInfoOutcomeLeft":"Yes","bottomInfoOutcomeRight":"No","outcomeAngle":135,"participantID":101,"session":1,"gambleDecision":"Yes","infoRevealDecision":"No","infoPlayTop":"Yes","infoPlayBottom":"No"},{"0":{"options":["+9","-12"],"infoPrice":"9","angle":0},"1":{"options":["+3","-3"],"infoPrice":"2","angle":150},"2":{"options":["+3","-12"],"infoPrice":"3","angle":150},"3":{"options":["+12","-3"],"infoPrice":"2","angle":30},"4":{"options":["+9","-6"],"infoPrice":"2","angle":0},"rt":584.1450000007171,"response":74,"trial_type":"canvas-keyboard-response","trial_index":16,"time_elapsed":37597,"internal_node_id":"0.0-4.0-2.2","leftColor":"MediumPurple","rightColor":"Gold","gambleChoiceLeft":"Yes","gambleChoiceRight":"No","infoShowLeft":"Yes","infoShowRight":"No","topInfoOutcomeLeft":"Yes","topInfoOutcomeRight":"No","bottomInfoOutcomeLeft":"Yes","bottomInfoOutcomeRight":"No","outcomeAngle":135,"participantID":101,"session":1,"gambleDecision":"Yes","infoRevealDecision":"No","infoPlayTop":"Yes","infoPlayBottom":"No"},{"0":{"options":["+9","-12"],"infoPrice":"9","angle":0},"1":{"options":["+3","-3"],"infoPrice":"2","angle":150},"2":{"options":["+3","-12"],"infoPrice":"3","angle":150},"3":{"options":["+12","-3"],"infoPrice":"2","angle":30},"4":{"options":["+9","-6"],"infoPrice":"2","angle":0},"startTime":37678.16000000312,"rt":null,"response":null,"trial_type":"canvas-keyboard-response","trial_index":17,"time_elapsed":38599,"internal_node_id":"0.0-4.0-3.2","leftColor":"MediumPurple","rightColor":"Gold","gambleChoiceLeft":"Yes","gambleChoiceRight":"No","infoShowLeft":"Yes","infoShowRight":"No","topInfoOutcomeLeft":"Yes","topInfoOutcomeRight":"No","bottomInfoOutcomeLeft":"Yes","bottomInfoOutcomeRight":"No","outcomeAngle":135,"participantID":101,"session":1,"gambleDecision":"Yes","infoRevealDecision":"No","infoPlayTop":"Yes","infoPlayBottom":"No"},{"0":{"options":["+9","-12"],"infoPrice":"9","angle":0},"1":{"options":["+3","-3"],"infoPrice":"2","angle":150},"2":{"options":["+3","-12"],"infoPrice":"3","angle":150},"3":{"options":["+12","-3"],"infoPrice":"2","angle":30},"4":{"options":["+9","-6"],"infoPrice":"2","angle":0},"rt":81.63500000227941,"response":32,"trial_type":"canvas-keyboard-response","trial_index":18,"time_elapsed":38682,"internal_node_id":"0.0-4.0-5.2","leftColor":"MediumPurple","rightColor":"Gold","gambleChoiceLeft":"Yes","gambleChoiceRight":"No","infoShowLeft":"Yes","infoShowRight":"No","topInfoOutcomeLeft":"Yes","topInfoOutcomeRight":"No","bottomInfoOutcomeLeft":"Yes","bottomInfoOutcomeRight":"No","outcomeAngle":135,"participantID":101,"session":1,"gambleDecision":"Yes","infoRevealDecision":"No","infoPlayTop":"Yes","infoPlayBottom":"No"},{"0":{"options":["+9","-12"],"infoPrice":"9","angle":0},"1":{"options":["+3","-3"],"infoPrice":"2","angle":150},"2":{"options":["+3","-12"],"infoPrice":"3","angle":150},"3":{"options":["+12","-3"],"infoPrice":"2","angle":30},"4":{"options":["+9","-6"],"infoPrice":"2","angle":0},"rt":875.0149999978021,"response":70,"trial_type":"canvas-keyboard-response","trial_index":19,"time_elapsed":39559,"internal_node_id":"0.0-4.0-0.3","leftColor":"MediumPurple","rightColor":"Gold","gambleChoiceLeft":"Yes","gambleChoiceRight":"No","infoShowLeft":"Yes","infoShowRight":"No","topInfoOutcomeLeft":"Yes","topInfoOutcomeRight":"No","bottomInfoOutcomeLeft":"Yes","bottomInfoOutcomeRight":"No","outcomeAngle":135,"participantID":101,"session":1,"gambleDecision":"Yes","infoRevealDecision":"No","infoPlayTop":"Yes","infoPlayBottom":"No"},{"0":{"options":["+9","-12"],"infoPrice":"9","angle":0},"1":{"options":["+3","-3"],"infoPrice":"2","angle":150},"2":{"options":["+3","-12"],"infoPrice":"3","angle":150},"3":{"options":["+12","-3"],"infoPrice":"2","angle":30},"4":{"options":["+9","-6"],"infoPrice":"2","angle":0},"startTime":39640.20000000164,"rt":null,"response":null,"trial_type":"canvas-keyboard-response","trial_index":20,"time_elapsed":40562,"internal_node_id":"0.0-4.0-1.3","leftColor":"MediumPurple","rightColor":"Gold","gambleChoiceLeft":"Yes","gambleChoiceRight":"No","infoShowLeft":"Yes","infoShowRight":"No","topInfoOutcomeLeft":"Yes","topInfoOutcomeRight":"No","bottomInfoOutcomeLeft":"Yes","bottomInfoOutcomeRight":"No","outcomeAngle":135,"participantID":101,"session":1,"gambleDecision":"Yes","infoRevealDecision":"No","infoPlayTop":"Yes","infoPlayBottom":"No"},{"0":{"options":["+9","-12"],"infoPrice":"9","angle":0},"1":{"options":["+3","-3"],"infoPrice":"2","angle":150},"2":{"options":["+3","-12"],"infoPrice":"3","angle":150},"3":{"options":["+12","-3"],"infoPrice":"2","angle":30},"4":{"options":["+9","-6"],"infoPrice":"2","angle":0},"rt":2258.369999995921,"response":70,"trial_type":"canvas-keyboard-response","trial_index":21,"time_elapsed":42823,"internal_node_id":"0.0-4.0-2.3","leftColor":"MediumPurple","rightColor":"Gold","gambleChoiceLeft":"Yes","gambleChoiceRight":"No","infoShowLeft":"Yes","infoShowRight":"No","topInfoOutcomeLeft":"Yes","topInfoOutcomeRight":"No","bottomInfoOutcomeLeft":"Yes","bottomInfoOutcomeRight":"No","outcomeAngle":135,"participantID":101,"session":1,"gambleDecision":"Yes","infoRevealDecision":"No","infoPlayTop":"Yes","infoPlayBottom":"No"},{"0":{"options":["+9","-12"],"infoPrice":"9","angle":0},"1":{"options":["+3","-3"],"infoPrice":"2","angle":150},"2":{"options":["+3","-12"],"infoPrice":"3","angle":150},"3":{"options":["+12","-3"],"infoPrice":"2","angle":30},"4":{"options":["+9","-6"],"infoPrice":"2","angle":0},"startTime":42904.560000002675,"rt":null,"response":null,"trial_type":"canvas-keyboard-response","trial_index":22,"time_elapsed":43827,"internal_node_id":"0.0-4.0-3.3","leftColor":"MediumPurple","rightColor":"Gold","gambleChoiceLeft":"Yes","gambleChoiceRight":"No","infoShowLeft":"Yes","infoShowRight":"No","topInfoOutcomeLeft":"Yes","topInfoOutcomeRight":"No","bottomInfoOutcomeLeft":"Yes","bottomInfoOutcomeRight":"No","outcomeAngle":135,"participantID":101,"session":1,"gambleDecision":"Yes","infoRevealDecision":"No","infoPlayTop":"Yes","infoPlayBottom":"No"},{"0":{"options":["+9","-12"],"infoPrice":"9","angle":0},"1":{"options":["+3","-3"],"infoPrice":"2","angle":150},"2":{"options":["+3","-12"],"infoPrice":"3","angle":150},"3":{"options":["+12","-3"],"infoPrice":"2","angle":30},"4":{"options":["+9","-6"],"infoPrice":"2","angle":0},"rt":895.1449999949546,"response":70,"trial_type":"canvas-keyboard-response","trial_index":23,"time_elapsed":44726,"internal_node_id":"0.0-4.0-4.3-0.3","leftColor":"MediumPurple","rightColor":"Gold","gambleChoiceLeft":"Yes","gambleChoiceRight":"No","infoShowLeft":"Yes","infoShowRight":"No","topInfoOutcomeLeft":"Yes","topInfoOutcomeRight":"No","bottomInfoOutcomeLeft":"Yes","bottomInfoOutcomeRight":"No","outcomeAngle":135,"participantID":101,"session":1,"gambleDecision":"Yes","infoRevealDecision":"No","infoPlayTop":"Yes","infoPlayBottom":"No"},{"0":{"options":["+9","-12"],"infoPrice":"9","angle":0},"1":{"options":["+3","-3"],"infoPrice":"2","angle":150},"2":{"options":["+3","-12"],"infoPrice":"3","angle":150},"3":{"options":["+12","-3"],"infoPrice":"2","angle":30},"4":{"options":["+9","-6"],"infoPrice":"2","angle":0},"startTime":44807.57500000618,"rt":null,"response":null,"trial_type":"canvas-keyboard-response","trial_index":24,"time_elapsed":45730,"internal_node_id":"0.0-4.0-4.3-1.3","leftColor":"MediumPurple","rightColor":"Gold","gambleChoiceLeft":"Yes","gambleChoiceRight":"No","infoShowLeft":"Yes","infoShowRight":"No","topInfoOutcomeLeft":"Yes","topInfoOutcomeRight":"No","bottomInfoOutcomeLeft":"Yes","bottomInfoOutcomeRight":"No","outcomeAngle":135,"participantID":101,"session":1,"gambleDecision":"Yes","infoRevealDecision":"No","infoPlayTop":"Yes","infoPlayBottom":"No"},{"0":{"options":["+9","-12"],"infoPrice":"9","angle":0},"1":{"options":["+3","-3"],"infoPrice":"2","angle":150},"2":{"options":["+3","-12"],"infoPrice":"3","angle":150},"3":{"options":["+12","-3"],"infoPrice":"2","angle":30},"4":{"options":["+9","-6"],"infoPrice":"2","angle":0},"rt":1521.6750000035972,"response":74,"trial_type":"canvas-keyboard-response","trial_index":25,"time_elapsed":47255,"internal_node_id":"0.0-4.0-4.3-2.3","leftColor":"MediumPurple","rightColor":"Gold","gambleChoiceLeft":"Yes","gambleChoiceRight":"No","infoShowLeft":"Yes","infoShowRight":"No","topInfoOutcomeLeft":"Yes","topInfoOutcomeRight":"No","bottomInfoOutcomeLeft":"Yes","bottomInfoOutcomeRight":"No","outcomeAngle":135,"participantID":101,"session":1,"gambleDecision":"Yes","infoRevealDecision":"No","infoPlayTop":"Yes","infoPlayBottom":"No"},{"0":{"options":["+9","-12"],"infoPrice":"9","angle":0},"1":{"options":["+3","-3"],"infoPrice":"2","angle":150},"2":{"options":["+3","-12"],"infoPrice":"3","angle":150},"3":{"options":["+12","-3"],"infoPrice":"2","angle":30},"4":{"options":["+9","-6"],"infoPrice":"2","angle":0},"startTime":47336.41500000522,"rt":null,"response":null,"trial_type":"canvas-keyboard-response","trial_index":26,"time_elapsed":48258,"internal_node_id":"0.0-4.0-4.3-3.3","leftColor":"MediumPurple","rightColor":"Gold","gambleChoiceLeft":"Yes","gambleChoiceRight":"No","infoShowLeft":"Yes","infoShowRight":"No","topInfoOutcomeLeft":"Yes","topInfoOutcomeRight":"No","bottomInfoOutcomeLeft":"Yes","bottomInfoOutcomeRight":"No","outcomeAngle":135,"participantID":101,"session":1,"gambleDecision":"Yes","infoRevealDecision":"No","infoPlayTop":"Yes","infoPlayBottom":"No"},{"0":{"options":["+9","-12"],"infoPrice":"9","angle":0},"1":{"options":["+3","-3"],"infoPrice":"2","angle":150},"2":{"options":["+3","-12"],"infoPrice":"3","angle":150},"3":{"options":["+12","-3"],"infoPrice":"2","angle":30},"4":{"options":["+9","-6"],"infoPrice":"2","angle":0},"rt":514.7450000004028,"response":32,"trial_type":"canvas-keyboard-response","trial_index":27,"time_elapsed":48773,"internal_node_id":"0.0-4.0-5.3","leftColor":"MediumPurple","rightColor":"Gold","gambleChoiceLeft":"Yes","gambleChoiceRight":"No","infoShowLeft":"Yes","infoShowRight":"No","topInfoOutcomeLeft":"Yes","topInfoOutcomeRight":"No","bottomInfoOutcomeLeft":"Yes","bottomInfoOutcomeRight":"No","outcomeAngle":135,"participantID":101,"session":1,"gambleDecision":"Yes","infoRevealDecision":"No","infoPlayTop":"Yes","infoPlayBottom":"No"},{"0":{"options":["+9","-12"],"infoPrice":"9","angle":0},"1":{"options":["+3","-3"],"infoPrice":"2","angle":150},"2":{"options":["+3","-12"],"infoPrice":"3","angle":150},"3":{"options":["+12","-3"],"infoPrice":"2","angle":30},"4":{"options":["+9","-6"],"infoPrice":"2","angle":0},"rt":1061.585000003106,"response":70,"trial_type":"canvas-keyboard-response","trial_index":28,"time_elapsed":49837,"internal_node_id":"0.0-4.0-0.4","leftColor":"MediumPurple","rightColor":"Gold","gambleChoiceLeft":"Yes","gambleChoiceRight":"No","infoShowLeft":"Yes","infoShowRight":"No","topInfoOutcomeLeft":"Yes","topInfoOutcomeRight":"No","bottomInfoOutcomeLeft":"Yes","bottomInfoOutcomeRight":"No","outcomeAngle":135,"participantID":101,"session":1,"gambleDecision":"Yes","infoRevealDecision":"No","infoPlayTop":"Yes","infoPlayBottom":"No"},{"0":{"options":["+9","-12"],"infoPrice":"9","angle":0},"1":{"options":["+3","-3"],"infoPrice":"2","angle":150},"2":{"options":["+3","-12"],"infoPrice":"3","angle":150},"3":{"options":["+12","-3"],"infoPrice":"2","angle":30},"4":{"options":["+9","-6"],"infoPrice":"2","angle":0},"startTime":49918.64000000351,"rt":null,"response":null,"trial_type":"canvas-keyboard-response","trial_index":29,"time_elapsed":50840,"internal_node_id":"0.0-4.0-1.4","leftColor":"MediumPurple","rightColor":"Gold","gambleChoiceLeft":"Yes","gambleChoiceRight":"No","infoShowLeft":"Yes","infoShowRight":"No","topInfoOutcomeLeft":"Yes","topInfoOutcomeRight":"No","bottomInfoOutcomeLeft":"Yes","bottomInfoOutcomeRight":"No","outcomeAngle":135,"participantID":101,"session":1,"gambleDecision":"Yes","infoRevealDecision":"No","infoPlayTop":"Yes","infoPlayBottom":"No"},{"0":{"options":["+9","-12"],"infoPrice":"9","angle":0},"1":{"options":["+3","-3"],"infoPrice":"2","angle":150},"2":{"options":["+3","-12"],"infoPrice":"3","angle":150},"3":{"options":["+12","-3"],"infoPrice":"2","angle":30},"4":{"options":["+9","-6"],"infoPrice":"2","angle":0},"rt":1032.565000001341,"response":74,"trial_type":"canvas-keyboard-response","trial_index":30,"time_elapsed":51874,"internal_node_id":"0.0-4.0-2.4","leftColor":"MediumPurple","rightColor":"Gold","gambleChoiceLeft":"Yes","gambleChoiceRight":"No","infoShowLeft":"Yes","infoShowRight":"No","topInfoOutcomeLeft":"Yes","topInfoOutcomeRight":"No","bottomInfoOutcomeLeft":"Yes","bottomInfoOutcomeRight":"No","outcomeAngle":135,"participantID":101,"session":1,"gambleDecision":"Yes","infoRevealDecision":"No","infoPlayTop":"Yes","infoPlayBottom":"No"},{"0":{"options":["+9","-12"],"infoPrice":"9","angle":0},"1":{"options":["+3","-3"],"infoPrice":"2","angle":150},"2":{"options":["+3","-12"],"infoPrice":"3","angle":150},"3":{"options":["+12","-3"],"infoPrice":"2","angle":30},"4":{"options":["+9","-6"],"infoPrice":"2","angle":0},"startTime":51955.19500000228,"rt":null,"response":null,"trial_type":"canvas-keyboard-response","trial_index":31,"time_elapsed":52881,"internal_node_id":"0.0-4.0-3.4","leftColor":"MediumPurple","rightColor":"Gold","gambleChoiceLeft":"Yes","gambleChoiceRight":"No","infoShowLeft":"Yes","infoShowRight":"No","topInfoOutcomeLeft":"Yes","topInfoOutcomeRight":"No","bottomInfoOutcomeLeft":"Yes","bottomInfoOutcomeRight":"No","outcomeAngle":135,"participantID":101,"session":1,"gambleDecision":"Yes","infoRevealDecision":"No","infoPlayTop":"Yes","infoPlayBottom":"No"},{"0":{"options":["+9","-12"],"infoPrice":"9","angle":0},"1":{"options":["+3","-3"],"infoPrice":"2","angle":150},"2":{"options":["+3","-12"],"infoPrice":"3","angle":150},"3":{"options":["+12","-3"],"infoPrice":"2","angle":30},"4":{"options":["+9","-6"],"infoPrice":"2","angle":0},"rt":829.3499999999767,"response":32,"trial_type":"canvas-keyboard-response","trial_index":32,"time_elapsed":53712,"internal_node_id":"0.0-4.0-5.4","leftColor":"MediumPurple","rightColor":"Gold","gambleChoiceLeft":"Yes","gambleChoiceRight":"No","infoShowLeft":"Yes","infoShowRight":"No","topInfoOutcomeLeft":"Yes","topInfoOutcomeRight":"No","bottomInfoOutcomeLeft":"Yes","bottomInfoOutcomeRight":"No","outcomeAngle":135,"participantID":101,"session":1,"gambleDecision":"Yes","infoRevealDecision":"No","infoPlayTop":"Yes","infoPlayBottom":"No"}]