[{"0":{"options":["+9","-9"],"infoPrice":"2","angle":30},"1":{"options":["+12","-9"],"infoPrice":"0.05","angle":150},"2":{"options":["+9","-12"],"infoPrice":"0.05","angle":150},"3":{"options":["+9","-12"],"infoPrice":"2","angle":120},"4":{"options":["+6","-9"],"infoPrice":"3","angle":0},"success":true,"trial_type":"fullscreen","trial_index":0,"time_elapsed":3407,"internal_node_id":"0.0-0.0","leftColor":"MediumPurple","rightColor":"Gold","gambleChoiceLeft":"Yes","gambleChoiceRight":"No","infoShowLeft":"Yes","infoShowRight":"No","topInfoOutcomeLeft":"Yes","topInfoOutcomeRight":"No","bottomInfoOutcomeLeft":"Yes","bottomInfoOutcomeRight":"No","outcomeAngle":165,"participantID":101,"session":1,"gambleDecision":"No","infoRevealDecision":"No","infoPlayTop":"Yes","infoPlayBottom":"No"},{"0":{"options":["+9","-9"],"infoPrice":"2","angle":30},"1":{"options":["+12","-9"],"infoPrice":"0.05","angle":150},"2":{"options":["+9","-12"],"infoPrice":"0.05","angle":150},"3":{"options":["+9","-12"],"infoPrice":"2","angle":120},"4":{"options":["+6","-9"],"infoPrice":"3","angle":0},"rt":437.35999999626074,"stimulus":"Welcome to the experiment.<br>Press any key to begin.","key_press":32,"trial_type":"html-keyboard-response","trial_index":1,"time_elapsed":3846,"internal_node_id":"0.0-1.0","leftColor":"MediumPurple","rightColor":"Gold","gambleChoiceLeft":"Yes","gambleChoiceRight":"No","infoShowLeft":"Yes","infoShowRight":"No","topInfoOutcomeLeft":"Yes","topInfoOutcomeRight":"No","bottomInfoOutcomeLeft":"Yes","bottomInfoOutcomeRight":"No","outcomeAngle":165,"participantID":101,"session":1,"gambleDecision":"No","infoRevealDecision":"No","infoPlayTop":"Yes","infoPlayBottom":"No"},{"0":{"options":["+9","-9"],"infoPrice":"2","angle":30},"1":{"options":["+12","-9"],"infoPrice":"0.05","angle":150},"2":{"options":["+9","-12"],"infoPrice":"0.05","angle":150},"3":{"options":["+9","-12"],"infoPrice":"2","angle":120},"4":{"options":["+6","-9"],"infoPrice":"3","angle":0},"rt":2220.6850000002305,"responses":"{\"ID\":\"101\",\"session\":\"1\"}","trial_type":"survey-text","trial_index":2,"time_elapsed":6070,"internal_node_id":"0.0-2.0-0.0","leftColor":"MediumPurple","rightColor":"Gold","gambleChoiceLeft":"Yes","gambleChoiceRight":"No","infoShowLeft":"Yes","infoShowRight":"No","topInfoOutcomeLeft":"Yes","topInfoOutcomeRight":"No","bottomInfoOutcomeLeft":"Yes","bottomInfoOutcomeRight":"No","outcomeAngle":165,"participantID":101,"session":1,"gambleDecision":"No","infoRevealDecision":"No","infoPlayTop":"Yes","infoPlayBottom":"No"},{"0":{"options":["+9","-9"],"infoPrice":"2","angle":30},"1":{"options":["+12","-9"],"infoPrice":"0.05","angle":150},"2":{"options":["+9","-12"],"infoPrice":"0.05","angle":150},"3":{"options":["+9","-12"],"infoPrice":"2","angle":120},"4":{"options":["+6","-9"],"infoPrice":"3","angle":0},"rt":581.6500000000815,"stimulus":"<p>In this experiment, you need to make a couple of decisions.</p><p>A circle will appear in the center of the screen.</p><p>Press <strong>F</strong> for option on the <strong>left</strong>.</p><p>Press <strong>J</strong> for option on the <strong>right</strong>.</p><p><strong>Press any key to begin.</strong></p>","key_press":32,"trial_type":"html-keyboard-response","trial_index":3,"time_elapsed":6653,"internal_node_id":"0.0-3.0","leftColor":"MediumPurple","rightColor":"Gold","gambleChoiceLeft":"Yes","gambleChoiceRight":"No","infoShowLeft":"Yes","infoShowRight":"No","topInfoOutcomeLeft":"Yes","topInfoOutcomeRight":"No","bottomInfoOutcomeLeft":"Yes","bottomInfoOutcomeRight":"No","outcomeAngle":165,"participantID":101,"session":1,"gambleDecision":"No","infoRevealDecision":"No","infoPlayTop":"Yes","infoPlayBottom":"No"},{"0":{"options":["+9","-9"],"infoPrice":"2","angle":30},"1":{"options":["+12","-9"],"infoPrice":"0.05","angle":150},"2":{"options":["+9","-12"],"infoPrice":"0.05","angle":150},"3":{"options":["+9","-12"],"infoPrice":"2","angle":120},"4":{"options":["+6","-9"],"infoPrice":"3","angle":0},"rt":1365.3750000012224,"response":70,"trial_type":"canvas-keyboard-response","trial_index":4,"time_elapsed":8225,"internal_node_id":"0.0-4.0-0.0","leftColor":"MediumPurple","rightColor":"Gold","gambleChoiceLeft":"Yes","gambleChoiceRight":"No","infoShowLeft":"Yes","infoShowRight":"No","topInfoOutcomeLeft":"Yes","topInfoOutcomeRight":"No","bottomInfoOutcomeLeft":"Yes","bottomInfoOutcomeRight":"No","outcomeAngle":165,"participantID":101,"session":1,"gambleDecision":"No","infoRevealDecision":"No","infoPlayTop":"Yes","infoPlayBottom":"No"},{"0":{"options":["+9","-9"],"infoPrice":"2","angle":30},"1":{"options":["+12","-9"],"infoPrice":"0.05","angle":150},"2":{"options":["+9","-12"],"infoPrice":"0.05","angle":150},"3":{"options":["+9","-12"],"infoPrice":"2","angle":120},"4":{"options":["+6","-9"],"infoPrice":"3","angle":0},"startTime":8305.334999997285,"rt":null,"response":null,"trial_type":"canvas-keyboard-response","trial_index":5,"time_elapsed":9231,"internal_node_id":"0.0-4.0-1.0","leftColor":"MediumPurple","rightColor":"Gold","gambleChoiceLeft":"Yes","gambleChoiceRight":"No","infoShowLeft":"Yes","infoShowRight":"No","topInfoOutcomeLeft":"Yes","topInfoOutcomeRight":"No","bottomInfoOutcomeLeft":"Yes","bottomInfoOutcomeRight":"No","outcomeAngle":165,"participantID":101,"session":1,"gambleDecision":"No","infoRevealDecision":"No","infoPlayTop":"Yes","infoPlayBottom":"No"},{"0":{"options":["+9","-9"],"infoPrice":"2","angle":30},"1":{"options":["+12","-9"],"infoPrice":"0.05","angle":150},"2":{"options":["+9","-12"],"infoPrice":"0.05","angle":150},"3":{"options":["+9","-12"],"infoPrice":"2","angle":120},"4":{"options":["+6","-9"],"infoPrice":"3","angle":0},"rt":1524.8849999989034,"response":70,"trial_type":"canvas-keyboard-response","trial_index":6,"time_elapsed":10759,"internal_node_id":"0.0-4.0-2.0","leftColor":"MediumPurple","rightColor":"Gold","gambleChoiceLeft":"Yes","gambleChoiceRight":"No","infoShowLeft":"Yes","infoShowRight":"No","topInfoOutcomeLeft":"Yes","topInfoOutcomeRight":"No","bottomInfoOutcomeLeft":"Yes","bottomInfoOutcomeRight":"No","outcomeAngle":165,"participantID":101,"session":1,"gambleDecision":"No","infoRevealDecision":"No","infoPlayTop":"Yes","infoPlayBottom":"No"},{"0":{"options":["+9","-9"],"infoPrice":"2","angle":30},"1":{"options":["+12","-9"],"infoPrice":"0.05","angle":150},"2":{"options":["+9","-12"],"infoPrice":"0.05","angle":150},"3":{"options":["+9","-12"],"infoPrice":"2","angle":120},"4":{"options":["+6","-9"],"infoPrice":"3","angle":0},"startTime":10838.824999998906,"rt":null,"response":null,"trial_type":"canvas-keyboard-response","trial_index":7,"time_elapsed":11761,"internal_node_id":"0.0-4.0-3.0","leftColor":"MediumPurple","rightColor":"Gold","gambleChoiceLeft":"Yes","gambleChoiceRight":"No","infoShowLeft":"Yes","infoShowRight":"No","topInfoOutcomeLeft":"Yes","topInfoOutcomeRight":"No","bottomInfoOutcomeLeft":"Yes","bottomInfoOutcomeRight":"No","outcomeAngle":165,"participantID":101,"session":1,"gambleDecision":"No","infoRevealDecision":"No","infoPlayTop":"Yes","infoPlayBottom":"No"},{"0":{"options":["+9","-9"],"infoPrice":"2","angle":30},"1":{"options":["+12","-9"],"infoPrice":"0.05","angle":150},"2":{"options":["+9","-12"],"infoPrice":"0.05","angle":150},"3":{"options":["+9","-12"],"infoPrice":"2","angle":120},"4":{"options":["+6","-9"],"infoPrice":"3","angle":0},"rt":734.0949999997974,"response":70,"trial_type":"canvas-keyboard-response","trial_index":8,"time_elapsed":12498,"internal_node_id":"0.0-4.0-4.0-0.0","leftColor":"MediumPurple","rightColor":"Gold","gambleChoiceLeft":"Yes","gambleChoiceRight":"No","infoShowLeft":"Yes","infoShowRight":"No","topInfoOutcomeLeft":"Yes","topInfoOutcomeRight":"No","bottomInfoOutcomeLeft":"Yes","bottomInfoOutcomeRight":"No","outcomeAngle":165,"participantID":101,"session":1,"gambleDecision":"No","infoRevealDecision":"No","infoPlayTop":"Yes","infoPlayBottom":"No"},{"0":{"options":["+9","-9"],"infoPrice":"2","angle":30},"1":{"options":["+12","-9"],"infoPrice":"0.05","angle":150},"2":{"options":["+9","-12"],"infoPrice":"0.05","angle":150},"3":{"options":["+9","-12"],"infoPrice":"2","angle":120},"4":{"options":["+6","-9"],"infoPrice":"3","angle":0},"startTime":12577.62499999808,"rt":null,"response":null,"trial_type":"canvas-keyboard-response","trial_index":9,"time_elapsed":13500,"internal_node_id":"0.0-4.0-4.0-1.0","leftColor":"MediumPurple","rightColor":"Gold","gambleChoiceLeft":"Yes","gambleChoiceRight":"No","infoShowLeft":"Yes","infoShowRight":"No","topInfoOutcomeLeft":"Yes","topInfoOutcomeRight":"No","bottomInfoOutcomeLeft":"Yes","bottomInfoOutcomeRight":"No","outcomeAngle":165,"participantID":101,"session":1,"gambleDecision":"No","infoRevealDecision":"No","infoPlayTop":"Yes","infoPlayBottom":"No"},{"0":{"options":["+9","-9"],"infoPrice":"2","angle":30},"1":{"options":["+12","-9"],"infoPrice":"0.05","angle":150},"2":{"options":["+9","-12"],"infoPrice":"0.05","angle":150},"3":{"options":["+9","-12"],"infoPrice":"2","angle":120},"4":{"options":["+6","-9"],"infoPrice":"3","angle":0},"rt":1620.3399999940302,"response":74,"trial_type":"canvas-keyboard-response","trial_index":10,"time_elapsed":15124,"internal_node_id":"0.0-4.0-4.0-2.0","leftColor":"MediumPurple","rightColor":"Gold","gambleChoiceLeft":"Yes","gambleChoiceRight":"No","infoShowLeft":"Yes","infoShowRight":"No","topInfoOutcomeLeft":"Yes","topInfoOutcomeRight":"No","bottomInfoOutcomeLeft":"Yes","bottomInfoOutcomeRight":"No","outcomeAngle":165,"participantID":101,"session":1,"gambleDecision":"No","infoRevealDecision":"No","infoPlayTop":"Yes","infoPlayBottom":"No"},{"0":{"options":["+9","-9"],"infoPrice":"2","angle":30},"1":{"options":["+12","-9"],"infoPrice":"0.05","angle":150},"2":{"options":["+9","-12"],"infoPrice":"0.05","angle":150},"3":{"options":["+9","-12"],"infoPrice":"2","angle":120},"4":{"options":["+6","-9"],"infoPrice":"3","angle":0},"startTime":15204.054999994696,"rt":null,"response":null,"trial_type":"canvas-keyboard-response","trial_index":11,"time_elapsed":16129,"internal_node_id":"0.0-4.0-4.0-3.0","leftColor":"MediumPurple","rightColor":"Gold","gambleChoiceLeft":"Yes","gambleChoiceRight":"No","infoShowLeft":"Yes","infoShowRight":"No","topInfoOutcomeLeft":"Yes","topInfoOutcomeRight":"No","bottomInfoOutcomeLeft":"Yes","bottomInfoOutcomeRight":"No","outcomeAngle":165,"participantID":101,"session":1,"gambleDecision":"No","infoRevealDecision":"No","infoPlayTop":"Yes","infoPlayBottom":"No"},{"0":{"options":["+9","-9"],"infoPrice":"2","angle":30},"1":{"options":["+12","-9"],"infoPrice":"0.05","angle":150},"2":{"options":["+9","-12"],"infoPrice":"0.05","angle":150},"3":{"options":["+9","-12"],"infoPrice":"2","angle":120},"4":{"options":["+6","-9"],"infoPrice":"3","angle":0},"rt":489.5849999957136,"response":32,"trial_type":"canvas-keyboard-response","trial_index":12,"time_elapsed":16621,"internal_node_id":"0.0-4.0-5.0","leftColor":"MediumPurple","rightColor":"Gold","gambleChoiceLeft":"Yes","gambleChoiceRight":"No","infoShowLeft":"Yes","infoShowRight":"No","topInfoOutcomeLeft":"Yes","topInfoOutcomeRight":"No","bottomInfoOutcomeLeft":"Yes","bottomInfoOutcomeRight":"No","outcomeAngle":165,"participantID":101,"session":1,"gambleDecision":"No","infoRevealDecision":"No","infoPlayTop":"Yes","infoPlayBottom":"No"},{"0":{"options":["+9","-9"],"infoPrice":"2","angle":30},"1":{"options":["+12","-9"],"infoPrice":"0.05","angle":150},"2":{"options":["+9","-12"],"infoPrice":"0.05","angle":150},"3":{"options":["+9","-12"],"infoPrice":"2","angle":120},"4":{"options":["+6","-9"],"infoPrice":"3","angle":0},"rt":1083.0099999948288,"response":70,"trial_type":"canvas-keyboard-response","trial_index":13,"time_elapsed":17706,"internal_node_id":"0.0-4.0-0.1","leftColor":"MediumPurple","rightColor":"Gold","gambleChoiceLeft":"Yes","gambleChoiceRight":"No","infoShowLeft":"Yes","infoShowRight":"No","topInfoOutcomeLeft":"Yes","topInfoOutcomeRight":"No","bottomInfoOutcomeLeft":"Yes","bottomInfoOutcomeRight":"No","outcomeAngle":165,"participantID":101,"session":1,"gambleDecision":"No","infoRevealDecision":"No","infoPlayTop":"Yes","infoPlayBottom":"No"},{"0":{"options":["+9","-9"],"infoPrice":"2","angle":30},"1":{"options":["+12","-9"],"infoPrice":"0.05","angle":150},"2":{"options":["+9","-12"],"infoPrice":"0.05","angle":150},"3":{"options":["+9","-12"],"infoPrice":"2","angle":120},"4":{"options":["+6","-9"],"infoPrice":"3","angle":0},"startTime":17785.830000000715,"rt":null,"response":null,"trial_type":"canvas-keyboard-response","trial_index":14,"time_elapsed":18711,"internal_node_id":"0.0-4.0-1.1","leftColor":"MediumPurple","rightColor":"Gold","gambleChoiceLeft":"Yes","gambleChoiceRight":"No","infoShowLeft":"Yes","infoShowRight":"No","topInfoOutcomeLeft":"Yes","topInfoOutcomeRight":"No","bottomInfoOutcomeLeft":"Yes","bottomInfoOutcomeRight":"No","outcomeAngle":165,"participantID":101,"session":1,"gambleDecision":"No","infoRevealDecision":"No","infoPlayTop":"Yes","infoPlayBottom":"No"},{"0":{"options":["+9","-9"],"infoPrice":"2","angle":30},"1":{"options":["+12","-9"],"infoPrice":"0.05","angle":150},"2":{"options":["+9","-12"],"infoPrice":"0.05","angle":150},"3":{"options":["+9","-12"],"infoPrice":"2","angle":120},"4":{"options":["+6","-9"],"infoPrice":"3","angle":0},"rt":2012.9349999988335,"response":70,"trial_type":"canvas-keyboard-response","trial_index":15,"time_elapsed":20733,"internal_node_id":"0.0-4.0-2.1","leftColor":"MediumPurple","rightColor":"Gold","gambleChoiceLeft":"Yes","gambleChoiceRight":"No","infoShowLeft":"Yes","infoShowRight":"No","topInfoOutcomeLeft":"Yes","topInfoOutcomeRight":"No","bottomInfoOutcomeLeft":"Yes","bottomInfoOutcomeRight":"No","outcomeAngle":165,"participantID":101,"session":1,"gambleDecision":"No","infoRevealDecision":"No","infoPlayTop":"Yes","infoPlayBottom":"No"},{"0":{"options":["+9","-9"],"infoPrice":"2","angle":30},"1":{"options":["+12","-9"],"infoPrice":"0.05","angle":150},"2":{"options":["+9","-12"],"infoPrice":"0.05","angle":150},"3":{"options":["+9","-12"],"infoPrice":"2","angle":120},"4":{"options":["+6","-9"],"infoPrice":"3","angle":0},"startTime":20812.85499999649,"rt":null,"response":null,"trial_type":"canvas-keyboard-response","trial_index":16,"time_elapsed":21735,"internal_node_id":"0.0-4.0-3.1","leftColor":"MediumPurple","rightColor":"Gold","gambleChoiceLeft":"Yes","gambleChoiceRight":"No","infoShowLeft":"Yes","infoShowRight":"No","topInfoOutcomeLeft":"Yes","topInfoOutcomeRight":"No","bottomInfoOutcomeLeft":"Yes","bottomInfoOutcomeRight":"No","outcomeAngle":165,"participantID":101,"session":1,"gambleDecision":"No","infoRevealDecision":"No","infoPlayTop":"Yes","infoPlayBottom":"No"},{"0":{"options":["+9","-9"],"infoPrice":"2","angle":30},"1":{"options":["+12","-9"],"infoPrice":"0.05","angle":150},"2":{"options":["+9","-12"],"infoPrice":"0.05","angle":150},"3":{"options":["+9","-12"],"infoPrice":"2","angle":120},"4":{"options":["+6","-9"],"infoPrice":"3","angle":0},"rt":3014.4450000007055,"response":70,"trial_type":"canvas-keyboard-response","trial_index":17,"time_elapsed":24752,"internal_node_id":"0.0-4.0-4.1-0.1","leftColor":"MediumPurple","rightColor":"Gold","gambleChoiceLeft":"Yes","gambleChoiceRight":"No","infoShowLeft":"Yes","infoShowRight":"No","topInfoOutcomeLeft":"Yes","topInfoOutcomeRight":"No","bottomInfoOutcomeLeft":"Yes","bottomInfoOutcomeRight":"No","outcomeAngle":165,"participantID":101,"session":1,"gambleDecision":"No","infoRevealDecision":"No","infoPlayTop":"Yes","infoPlayBottom":"No"},{"0":{"options":["+9","-9"],"infoPrice":"2","angle":30},"1":{"options":["+12","-9"],"infoPrice":"0.05","angle":150},"2":{"options":["+9","-12"],"infoPrice":"0.05","angle":150},"3":{"options":["+9","-12"],"infoPrice":"2","angle":120},"4":{"options":["+6","-9"],"infoPrice":"3","angle":0},"startTime":24832.37999999983,"rt":null,"response":null,"trial_type":"canvas-keyboard-response","trial_index":18,"time_elapsed":25755,"internal_node_id":"0.0-4.0-4.1-1.1","leftColor":"MediumPurple","rightColor":"Gold","gambleChoiceLeft":"Yes","gambleChoiceRight":"No","infoShowLeft":"Yes","infoShowRight":"No","topInfoOutcomeLeft":"Yes","topInfoOutcomeRight":"No","bottomInfoOutcomeLeft":"Yes","bottomInfoOutcomeRight":"No","outcomeAngle":165,"participantID":101,"session":1,"gambleDecision":"No","infoRevealDecision":"No","infoPlayTop":"Yes","infoPlayBottom":"No"},{"0":{"options":["+9","-9"],"infoPrice":"2","angle":30},"1":{"options":["+12","-9"],"infoPrice":"0.05","angle":150},"2":{"options":["+9","-12"],"infoPrice":"0.05","angle":150},"3":{"options":["+9","-12"],"infoPrice":"2","angle":120},"4":{"options":["+6","-9"],"infoPrice":"3","angle":0},"rt":996.1000000039348,"response":74,"trial_type":"canvas-keyboard-response","trial_index":19,"time_elapsed":26753,"internal_node_id":"0.0-4.0-4.1-2.1","leftColor":"MediumPurple","rightColor":"Gold","gambleChoiceLeft":"Yes","gambleChoiceRight":"No","infoShowLeft":"Yes","infoShowRight":"No","topInfoOutcomeLeft":"Yes","topInfoOutcomeRight":"No","bottomInfoOutcomeLeft":"Yes","bottomInfoOutcomeRight":"No","outcomeAngle":165,"participantID":101,"session":1,"gambleDecision":"No","infoRevealDecision":"No","infoPlayTop":"Yes","infoPlayBottom":"No"},{"0":{"options":["+9","-9"],"infoPrice":"2","angle":30},"1":{"options":["+12","-9"],"infoPrice":"0.05","angle":150},"2":{"options":["+9","-12"],"infoPrice":"0.05","angle":150},"3":{"options":["+9","-12"],"infoPrice":"2","angle":120},"4":{"options":["+6","-9"],"infoPrice":"3","angle":0},"startTime":26833.525000001828,"rt":null,"response":null,"trial_type":"canvas-keyboard-response","trial_index":20,"time_elapsed":27757,"internal_node_id":"0.0-4.0-4.1-3.1","leftColor":"MediumPurple","rightColor":"Gold","gambleChoiceLeft":"Yes","gambleChoiceRight":"No","infoShowLeft":"Yes","infoShowRight":"No","topInfoOutcomeLeft":"Yes","topInfoOutcomeRight":"No","bottomInfoOutcomeLeft":"Yes","bottomInfoOutcomeRight":"No","outcomeAngle":165,"participantID":101,"session":1,"gambleDecision":"No","infoRevealDecision":"No","infoPlayTop":"Yes","infoPlayBottom":"No"},{"0":{"options":["+9","-9"],"infoPrice":"2","angle":30},"1":{"options":["+12","-9"],"infoPrice":"0.05","angle":150},"2":{"options":["+9","-12"],"infoPrice":"0.05","angle":150},"3":{"options":["+9","-12"],"infoPrice":"2","angle":120},"4":{"options":["+6","-9"],"infoPrice":"3","angle":0},"rt":662.5350000031176,"response":32,"trial_type":"canvas-keyboard-response","trial_index":21,"time_elapsed":28422,"internal_node_id":"0.0-4.0-5.1","leftColor":"MediumPurple","rightColor":"Gold","gambleChoiceLeft":"Yes","gambleChoiceRight":"No","infoShowLeft":"Yes","infoShowRight":"No","topInfoOutcomeLeft":"Yes","topInfoOutcomeRight":"No","bottomInfoOutcomeLeft":"Yes","bottomInfoOutcomeRight":"No","outcomeAngle":165,"participantID":101,"session":1,"gambleDecision":"No","infoRevealDecision":"No","infoPlayTop":"Yes","infoPlayBottom":"No"},{"0":{"options":["+9","-9"],"infoPrice":"2","angle":30},"1":{"options":["+12","-9"],"infoPrice":"0.05","angle":150},"2":{"options":["+9","-12"],"infoPrice":"0.05","angle":150},"3":{"options":["+9","-12"],"infoPrice":"2","angle":120},"4":{"options":["+6","-9"],"infoPrice":"3","angle":0},"rt":1293.0099999939557,"response":74,"trial_type":"canvas-keyboard-response","trial_index":22,"time_elapsed":29717,"internal_node_id":"0.0-4.0-0.2","leftColor":"MediumPurple","rightColor":"Gold","gambleChoiceLeft":"Yes","gambleChoiceRight":"No","infoShowLeft":"Yes","infoShowRight":"No","topInfoOutcomeLeft":"Yes","topInfoOutcomeRight":"No","bottomInfoOutcomeLeft":"Yes","bottomInfoOutcomeRight":"No","outcomeAngle":165,"participantID":101,"session":1,"gambleDecision":"No","infoRevealDecision":"No","infoPlayTop":"Yes","infoPlayBottom":"No"},{"0":{"options":["+9","-9"],"infoPrice":"2","angle":30},"1":{"options":["+12","-9"],"infoPrice":"0.05","angle":150},"2":{"options":["+9","-12"],"infoPrice":"0.05","angle":150},"3":{"options":["+9","-12"],"infoPrice":"2","angle":120},"4":{"options":["+6","-9"],"infoPrice":"3","angle":0},"startTime":29797.364999998535,"rt":null,"response":null,"trial_type":"canvas-keyboard-response","trial_index":23,"time_elapsed":30722,"internal_node_id":"0.0-4.0-1.2","leftColor":"MediumPurple","rightColor":"Gold","gambleChoiceLeft":"Yes","gambleChoiceRight":"No","infoShowLeft":"Yes","infoShowRight":"No","topInfoOutcomeLeft":"Yes","topInfoOutcomeRight":"No","bottomInfoOutcomeLeft":"Yes","bottomInfoOutcomeRight":"No","outcomeAngle":165,"participantID":101,"session":1,"gambleDecision":"No","infoRevealDecision":"No","infoPlayTop":"Yes","infoPlayBottom":"No"},{"0":{"options":["+9","-9"],"infoPrice":"2","angle":30},"1":{"options":["+12","-9"],"infoPrice":"0.05","angle":150},"2":{"options":["+9","-12"],"infoPrice":"0.05","angle":150},"3":{"options":["+9","-12"],"infoPrice":"2","angle":120},"4":{"options":["+6","-9"],"infoPrice":"3","angle":0},"rt":944.7000000000116,"response":74,"trial_type":"canvas-keyboard-response","trial_index":24,"time_elapsed":31668,"internal_node_id":"0.0-4.0-2.2","leftColor":"MediumPurple","rightColor":"Gold","gambleChoiceLeft":"Yes","gambleChoiceRight":"No","infoShowLeft":"Yes","infoShowRight":"No","topInfoOutcomeLeft":"Yes","topInfoOutcomeRight":"No","bottomInfoOutcomeLeft":"Yes","bottomInfoOutcomeRight":"No","outcomeAngle":165,"participantID":101,"session":1,"gambleDecision":"No","infoRevealDecision":"No","infoPlayTop":"Yes","infoPlayBottom":"No"},{"0":{"options":["+9","-9"],"infoPrice":"2","angle":30},"1":{"options":["+12","-9"],"infoPrice":"0.05","angle":150},"2":{"options":["+9","-12"],"infoPrice":"0.05","angle":150},"3":{"options":["+9","-12"],"infoPrice":"2","angle":120},"4":{"options":["+6","-9"],"infoPrice":"3","angle":0},"startTime":31747.589999999036,"rt":null,"response":null,"trial_type":"canvas-keyboard-response","trial_index":25,"time_elapsed":32673,"internal_node_id":"0.0-4.0-3.2","leftColor":"MediumPurple","rightColor":"Gold","gambleChoiceLeft":"Yes","gambleChoiceRight":"No","infoShowLeft":"Yes","infoShowRight":"No","topInfoOutcomeLeft":"Yes","topInfoOutcomeRight":"No","bottomInfoOutcomeLeft":"Yes","bottomInfoOutcomeRight":"No","outcomeAngle":165,"participantID":101,"session":1,"gambleDecision":"No","infoRevealDecision":"No","infoPlayTop":"Yes","infoPlayBottom":"No"},{"0":{"options":["+9","-9"],"infoPrice":"2","angle":30},"1":{"options":["+12","-9"],"infoPrice":"0.05","angle":150},"2":{"options":["+9","-12"],"infoPrice":"0.05","angle":150},"3":{"options":["+9","-12"],"infoPrice":"2","angle":120},"4":{"options":["+6","-9"],"infoPrice":"3","angle":0},"rt":1037.369999998191,"response":32,"trial_type":"canvas-keyboard-response","trial_index":26,"time_elapsed":33712,"internal_node_id":"0.0-4.0-5.2","leftColor":"MediumPurple","rightColor":"Gold","gambleChoiceLeft":"Yes","gambleChoiceRight":"No","infoShowLeft":"Yes","infoShowRight":"No","topInfoOutcomeLeft":"Yes","topInfoOutcomeRight":"No","bottomInfoOutcomeLeft":"Yes","bottomInfoOutcomeRight":"No","outcomeAngle":165,"participantID":101,"session":1,"gambleDecision":"No","infoRevealDecision":"No","infoPlayTop":"Yes","infoPlayBottom":"No"},{"0":{"options":["+9","-9"],"infoPrice":"2","angle":30},"1":{"options":["+12","-9"],"infoPrice":"0.05","angle":150},"2":{"options":["+9","-12"],"infoPrice":"0.05","angle":150},"3":{"options":["+9","-12"],"infoPrice":"2","angle":120},"4":{"options":["+6","-9"],"infoPrice":"3","angle":0},"rt":1440.324999995937,"response":70,"trial_type":"canvas-keyboard-response","trial_index":27,"time_elapsed":35154,"internal_node_id":"0.0-4.0-0.3","leftColor":"MediumPurple","rightColor":"Gold","gambleChoiceLeft":"Yes","gambleChoiceRight":"No","infoShowLeft":"Yes","infoShowRight":"No","topInfoOutcomeLeft":"Yes","topInfoOutcomeRight":"No","bottomInfoOutcomeLeft":"Yes","bottomInfoOutcomeRight":"No","outcomeAngle":165,"participantID":101,"session":1,"gambleDecision":"No","infoRevealDecision":"No","infoPlayTop":"Yes","infoPlayBottom":"No"},{"0":{"options":["+9","-9"],"infoPrice":"2","angle":30},"1":{"options":["+12","-9"],"infoPrice":"0.05","angle":150},"2":{"options":["+9","-12"],"infoPrice":"0.05","angle":150},"3":{"options":["+9","-12"],"infoPrice":"2","angle":120},"4":{"options":["+6","-9"],"infoPrice":"3","angle":0},"startTime":35234.23499999626,"rt":null,"response":null,"trial_type":"canvas-keyboard-response","trial_index":28,"time_elapsed":36157,"internal_node_id":"0.0-4.0-1.3","leftColor":"MediumPurple","rightColor":"Gold","gambleChoiceLeft":"Yes","gambleChoiceRight":"No","infoShowLeft":"Yes","infoShowRight":"No","topInfoOutcomeLeft":"Yes","topInfoOutcomeRight":"No","bottomInfoOutcomeLeft":"Yes","bottomInfoOutcomeRight":"No","outcomeAngle":165,"participantID":101,"session":1,"gambleDecision":"No","infoRevealDecision":"No","infoPlayTop":"Yes","infoPlayBottom":"No"},{"0":{"options":["+9","-9"],"infoPrice":"2","angle":30},"1":{"options":["+12","-9"],"infoPrice":"0.05","angle":150},"2":{"options":["+9","-12"],"infoPrice":"0.05","angle":150},"3":{"options":["+9","-12"],"infoPrice":"2","angle":120},"4":{"options":["+6","-9"],"infoPrice":"3","angle":0},"rt":1094.2250000007334,"response":74,"trial_type":"canvas-keyboard-response","trial_index":29,"time_elapsed":37253,"internal_node_id":"0.0-4.0-2.3","leftColor":"MediumPurple","rightColor":"Gold","gambleChoiceLeft":"Yes","gambleChoiceRight":"No","infoShowLeft":"Yes","infoShowRight":"No","topInfoOutcomeLeft":"Yes","topInfoOutcomeRight":"No","bottomInfoOutcomeLeft":"Yes","bottomInfoOutcomeRight":"No","outcomeAngle":165,"participantID":101,"session":1,"gambleDecision":"No","infoRevealDecision":"No","infoPlayTop":"Yes","infoPlayBottom":"No"},{"0":{"options":["+9","-9"],"infoPrice":"2","angle":30},"1":{"options":["+12","-9"],"infoPrice":"0.05","angle":150},"2":{"options":["+9","-12"],"infoPrice":"0.05","angle":150},"3":{"options":["+9","-12"],"infoPrice":"2","angle":120},"4":{"options":["+6","-9"],"infoPrice":"3","angle":0},"startTime":37333.034999996016,"rt":null,"response":null,"trial_type":"canvas-keyboard-response","trial_index":30,"time_elapsed":38256,"internal_node_id":"0.0-4.0-3.3","leftColor":"MediumPurple","rightColor":"Gold","gambleChoiceLeft":"Yes","gambleChoiceRight":"No","infoShowLeft":"Yes","infoShowRight":"No","topInfoOutcomeLeft":"Yes","topInfoOutcomeRight":"No","bottomInfoOutcomeLeft":"Yes","bottomInfoOutcomeRight":"No","outcomeAngle":165,"participantID":101,"session":1,"gambleDecision":"No","infoRevealDecision":"No","infoPlayTop":"Yes","infoPlayBottom":"No"},{"0":{"options":["+9","-9"],"infoPrice":"2","angle":30},"1":{"options":["+12","-9"],"infoPrice":"0.05","angle":150},"2":{"options":["+9","-12"],"infoPrice":"0.05","angle":150},"3":{"options":["+9","-12"],"infoPrice":"2","angle":120},"4":{"options":["+6","-9"],"infoPrice":"3","angle":0},"rt":445.05000000208383,"response":32,"trial_type":"canvas-keyboard-response","trial_index":31,"time_elapsed":38702,"internal_node_id":"0.0-4.0-5.3","leftColor":"MediumPurple","rightColor":"Gold","gambleChoiceLeft":"Yes","gambleChoiceRight":"No","infoShowLeft":"Yes","infoShowRight":"No","topInfoOutcomeLeft":"Yes","topInfoOutcomeRight":"No","bottomInfoOutcomeLeft":"Yes","bottomInfoOutcomeRight":"No","outcomeAngle":165,"participantID":101,"session":1,"gambleDecision":"No","infoRevealDecision":"No","infoPlayTop":"Yes","infoPlayBottom":"No"},{"0":{"options":["+9","-9"],"infoPrice":"2","angle":30},"1":{"options":["+12","-9"],"infoPrice":"0.05","angle":150},"2":{"options":["+9","-12"],"infoPrice":"0.05","angle":150},"3":{"options":["+9","-12"],"infoPrice":"2","angle":120},"4":{"options":["+6","-9"],"infoPrice":"3","angle":0},"rt":993.094999997993,"response":74,"trial_type":"canvas-keyboard-response","trial_index":32,"time_elapsed":39697,"internal_node_id":"0.0-4.0-0.4","leftColor":"MediumPurple","rightColor":"Gold","gambleChoiceLeft":"Yes","gambleChoiceRight":"No","infoShowLeft":"Yes","infoShowRight":"No","topInfoOutcomeLeft":"Yes","topInfoOutcomeRight":"No","bottomInfoOutcomeLeft":"Yes","bottomInfoOutcomeRight":"No","outcomeAngle":165,"participantID":101,"session":1,"gambleDecision":"No","infoRevealDecision":"No","infoPlayTop":"Yes","infoPlayBottom":"No"},{"0":{"options":["+9","-9"],"infoPrice":"2","angle":30},"1":{"options":["+12","-9"],"infoPrice":"0.05","angle":150},"2":{"options":["+9","-12"],"infoPrice":"0.05","angle":150},"3":{"options":["+9","-12"],"infoPrice":"2","angle":120},"4":{"options":["+6","-9"],"infoPrice":"3","angle":0},"startTime":39776.935000001686,"rt":null,"response":null,"trial_type":"canvas-keyboard-response","trial_index":33,"time_elapsed":40704,"internal_node_id":"0.0-4.0-1.4","leftColor":"MediumPurple","rightColor":"Gold","gambleChoiceLeft":"Yes","gambleChoiceRight":"No","infoShowLeft":"Yes","infoShowRight":"No","topInfoOutcomeLeft":"Yes","topInfoOutcomeRight":"No","bottomInfoOutcomeLeft":"Yes","bottomInfoOutcomeRight":"No","outcomeAngle":165,"participantID":101,"session":1,"gambleDecision":"No","infoRevealDecision":"No","infoPlayTop":"Yes","infoPlayBottom":"No"},{"0":{"options":["+9","-9"],"infoPrice":"2","angle":30},"1":{"options":["+12","-9"],"infoPrice":"0.05","angle":150},"2":{"options":["+9","-12"],"infoPrice":"0.05","angle":150},"3":{"options":["+9","-12"],"infoPrice":"2","angle":120},"4":{"options":["+6","-9"],"infoPrice":"3","angle":0},"rt":643.2999999960884,"response":74,"trial_type":"canvas-keyboard-response","trial_index":34,"time_elapsed":41350,"internal_node_id":"0.0-4.0-2.4","leftColor":"MediumPurple","rightColor":"Gold","gambleChoiceLeft":"Yes","gambleChoiceRight":"No","infoShowLeft":"Yes","infoShowRight":"No","topInfoOutcomeLeft":"Yes","topInfoOutcomeRight":"No","bottomInfoOutcomeLeft":"Yes","bottomInfoOutcomeRight":"No","outcomeAngle":165,"participantID":101,"session":1,"gambleDecision":"No","infoRevealDecision":"No","infoPlayTop":"Yes","infoPlayBottom":"No"},{"0":{"options":["+9","-9"],"infoPrice":"2","angle":30},"1":{"options":["+12","-9"],"infoPrice":"0.05","angle":150},"2":{"options":["+9","-12"],"infoPrice":"0.05","angle":150},"3":{"options":["+9","-12"],"infoPrice":"2","angle":120},"4":{"options":["+6","-9"],"infoPrice":"3","angle":0},"startTime":41430.019999999786,"rt":null,"response":null,"trial_type":"canvas-keyboard-response","trial_index":35,"time_elapsed":42355,"internal_node_id":"0.0-4.0-3.4","leftColor":"MediumPurple","rightColor":"Gold","gambleChoiceLeft":"Yes","gambleChoiceRight":"No","infoShowLeft":"Yes","infoShowRight":"No","topInfoOutcomeLeft":"Yes","topInfoOutcomeRight":"No","bottomInfoOutcomeLeft":"Yes","bottomInfoOutcomeRight":"No","outcomeAngle":165,"participantID":101,"session":1,"gambleDecision":"No","infoRevealDecision":"No","infoPlayTop":"Yes","infoPlayBottom":"No"},{"0":{"options":["+9","-9"],"infoPrice":"2","angle":30},"1":{"options":["+12","-9"],"infoPrice":"0.05","angle":150},"2":{"options":["+9","-12"],"infoPrice":"0.05","angle":150},"3":{"options":["+9","-12"],"infoPrice":"2","angle":120},"4":{"options":["+6","-9"],"infoPrice":"3","angle":0},"rt":446.11999999324325,"response":32,"trial_type":"canvas-keyboard-response","trial_index":36,"time_elapsed":42803,"internal_node_id":"0.0-4.0-5.4","leftColor":"MediumPurple","rightColor":"Gold","gambleChoiceLeft":"Yes","gambleChoiceRight":"No","infoShowLeft":"Yes","infoShowRight":"No","topInfoOutcomeLeft":"Yes","topInfoOutcomeRight":"No","bottomInfoOutcomeLeft":"Yes","bottomInfoOutcomeRight":"No","outcomeAngle":165,"participantID":101,"session":1,"gambleDecision":"No","infoRevealDecision":"No","infoPlayTop":"Yes","infoPlayBottom":"No"}]